[
    {
        "rt": 6177,
        "stimulus": "\n    <p>The goal of this task is to correctly respond when the number presented on the screen is the same as the number that was presented right before it.\n    <p>Press next for more instructions.</p>\n  ",
        "response": 0,
        "trial_type": "html-button-response",
        "trial_index": 0,
        "time_elapsed": 6182,
        "internal_node_id": "0.0-0.0"
    },
    {
        "rt": 1952,
        "stimulus": "\n    <p>When you see a number that is the same as the number presented right before it, press the purple button as quickly as possible.</p><br></br>\n    <p>However, some numbers will turn orange a short time after they appear. Do NOT press the purple button in this case</p><br></br>\n   <p>Try to be as accurate as possible while still keeping up with the numbers. </p>\n    <p>Press the button below to begin.</p>\n  ",
        "response": 0,
        "trial_type": "html-button-response",
        "trial_index": 1,
        "time_elapsed": 9137,
        "internal_node_id": "0.0-1.0"
    },
    {
        "rt": null,
        "stimulus": "<p style=\"font-size:60px;font-weight:bold;color:#3f48cc\">54104</p>",
        "response": null,
        "type": "novel",
        "correct_response": null,
        "trial_type": "html-button-response",
        "trial_index": 2,
        "time_elapsed": 10642,
        "internal_node_id": "0.0-2.0-0.0-0.0",
        "correct": true
    },
    {
        "rt": null,
        "stimulus": "<p style=\"font-size:60px;font-weight:bold;color:#3f48cc\">+</p>",
        "response": null,
        "type": "fixation",
        "correct_response": null,
        "trial_type": "html-button-response",
        "trial_index": 3,
        "time_elapsed": 11645,
        "internal_node_id": "0.0-2.0-0.0-1.0",
        "correct": true
    },
    {
        "rt": null,
        "stimulus": "<p style=\"font-size:60px;font-weight:bold;color:#3f48cc\">54104</p>",
        "response": null,
        "type": "target",
        "correct_response": 0,
        "trial_type": "html-button-response",
        "trial_index": 4,
        "time_elapsed": 12149,
        "internal_node_id": "0.0-2.0-0.0-2.0",
        "correct": false
    },
    {
        "rt": 56,
        "stimulus": "<p style=\"font-size:60px;font-weight:bold;color:#3f48cc\">+</p>",
        "response": 0,
        "type": "fixation",
        "correct_response": null,
        "trial_type": "html-button-response",
        "trial_index": 5,
        "time_elapsed": 13152,
        "internal_node_id": "0.0-2.0-0.0-3.0",
        "correct": false
    },
    {
        "rt": null,
        "stimulus": "<p style=\"font-size:60px;font-weight:bold;color:#3f48cc\">62470</p>",
        "response": null,
        "type": "novel",
        "correct_response": null,
        "trial_type": "html-button-response",
        "trial_index": 6,
        "time_elapsed": 13656,
        "internal_node_id": "0.0-2.0-1.0-0.0",
        "correct": true
    },
    {
        "rt": null,
        "stimulus": "<p style=\"font-size:60px;font-weight:bold;color:#3f48cc\">+</p>",
        "response": null,
        "type": "fixation",
        "correct_response": null,
        "trial_type": "html-button-response",
        "trial_index": 7,
        "time_elapsed": 14659,
        "internal_node_id": "0.0-2.0-1.0-1.0",
        "correct": true
    },
    {
        "rt": null,
        "stimulus": "<p style=\"font-size:60px;font-weight:bold;color:#3f48cc\">62470</p>",
        "response": null,
        "type": "target",
        "correct_response": 0,
        "trial_type": "html-button-response",
        "trial_index": 8,
        "time_elapsed": 15162,
        "internal_node_id": "0.0-2.0-1.0-2.0",
        "correct": false
    },
    {
        "rt": null,
        "stimulus": "<p style=\"font-size:60px;font-weight:bold;color:#3f48cc\">+</p>",
        "response": null,
        "type": "fixation",
        "correct_response": null,
        "trial_type": "html-button-response",
        "trial_index": 9,
        "time_elapsed": 16166,
        "internal_node_id": "0.0-2.0-1.0-3.0",
        "correct": true
    },
    {
        "rt": null,
        "stimulus": "<p style=\"font-size:60px;font-weight:bold;color:#3f48cc\">59524</p>",
        "response": null,
        "type": "novel",
        "correct_response": null,
        "trial_type": "html-button-response",
        "trial_index": 10,
        "time_elapsed": 16669,
        "internal_node_id": "0.0-2.0-2.0-0.0",
        "correct": true
    },
    {
        "rt": null,
        "stimulus": "<p style=\"font-size:60px;font-weight:bold;color:#3f48cc\">+</p>",
        "response": null,
        "type": "fixation",
        "correct_response": null,
        "trial_type": "html-button-response",
        "trial_index": 11,
        "time_elapsed": 17673,
        "internal_node_id": "0.0-2.0-2.0-1.0",
        "correct": true
    },
    {
        "rt": null,
        "stimulus": "<p style=\"font-size:60px;font-weight:bold;color:#3f48cc\">59524</p>",
        "response": null,
        "type": "stop",
        "correct_response": null,
        "trial_type": "html-button-response",
        "trial_index": 12,
        "time_elapsed": 17827,
        "internal_node_id": "0.0-2.0-2.0-2.0",
        "correct": true
    },
    {
        "rt": null,
        "stimulus": "<p style=\"font-size:60px;font-weight:bold;color:#ffc90e\">59524</p>",
        "response": null,
        "type": "stop",
        "correct_response": null,
        "trial_type": "html-button-response",
        "trial_index": 13,
        "time_elapsed": 18180,
        "internal_node_id": "0.0-2.0-2.0-3.0",
        "correct": true
    },
    {
        "rt": 139,
        "stimulus": "<p style=\"font-size:60px;font-weight:bold;color:#3f48cc\">+</p>",
        "response": 0,
        "type": "fixation",
        "correct_response": null,
        "trial_type": "html-button-response",
        "trial_index": 14,
        "time_elapsed": 19184,
        "internal_node_id": "0.0-2.0-2.0-4.0",
        "correct": false
    },
    {
        "rt": null,
        "stimulus": "<p style=\"font-size:60px;font-weight:bold;color:#3f48cc\">58728</p>",
        "response": null,
        "type": "novel",
        "correct_response": null,
        "trial_type": "html-button-response",
        "trial_index": 15,
        "time_elapsed": 19687,
        "internal_node_id": "0.0-2.0-3.0-0.0",
        "correct": true
    },
    {
        "rt": null,
        "stimulus": "<p style=\"font-size:60px;font-weight:bold;color:#3f48cc\">+</p>",
        "response": null,
        "type": "fixation",
        "correct_response": null,
        "trial_type": "html-button-response",
        "trial_index": 16,
        "time_elapsed": 20691,
        "internal_node_id": "0.0-2.0-3.0-1.0",
        "correct": true
    },
    {
        "rt": null,
        "stimulus": "<p style=\"font-size:60px;font-weight:bold;color:#3f48cc\">58728</p>",
        "response": null,
        "type": "stop",
        "correct_response": null,
        "trial_type": "html-button-response",
        "trial_index": 17,
        "time_elapsed": 20843,
        "internal_node_id": "0.0-2.0-3.0-2.0",
        "correct": true
    },
    {
        "rt": null,
        "stimulus": "<p style=\"font-size:60px;font-weight:bold;color:#ffc90e\">58728</p>",
        "response": null,
        "type": "stop",
        "correct_response": null,
        "trial_type": "html-button-response",
        "trial_index": 18,
        "time_elapsed": 21196,
        "internal_node_id": "0.0-2.0-3.0-3.0",
        "correct": true
    },
    {
        "rt": null,
        "stimulus": "<p style=\"font-size:60px;font-weight:bold;color:#3f48cc\">+</p>",
        "response": null,
        "type": "fixation",
        "correct_response": null,
        "trial_type": "html-button-response",
        "trial_index": 19,
        "time_elapsed": 22199,
        "internal_node_id": "0.0-2.0-3.0-4.0",
        "correct": true
    },
    {
        "rt": null,
        "stimulus": "<p style=\"font-size:60px;font-weight:bold;color:#3f48cc\">81476</p>",
        "response": null,
        "type": "novel",
        "correct_response": null,
        "trial_type": "html-button-response",
        "trial_index": 20,
        "time_elapsed": 22702,
        "internal_node_id": "0.0-2.0-4.0-0.0",
        "correct": true
    },
    {
        "rt": null,
        "stimulus": "<p style=\"font-size:60px;font-weight:bold;color:#3f48cc\">+</p>",
        "response": null,
        "type": "fixation",
        "correct_response": null,
        "trial_type": "html-button-response",
        "trial_index": 21,
        "time_elapsed": 23705,
        "internal_node_id": "0.0-2.0-4.0-1.0",
        "correct": true
    },
    {
        "rt": null,
        "stimulus": "<p style=\"font-size:60px;font-weight:bold;color:#3f48cc\">81476</p>",
        "response": null,
        "type": "stop",
        "correct_response": null,
        "trial_type": "html-button-response",
        "trial_index": 22,
        "time_elapsed": 23858,
        "internal_node_id": "0.0-2.0-4.0-2.0",
        "correct": true
    },
    {
        "rt": null,
        "stimulus": "<p style=\"font-size:60px;font-weight:bold;color:#ffc90e\">81476</p>",
        "response": null,
        "type": "stop",
        "correct_response": null,
        "trial_type": "html-button-response",
        "trial_index": 23,
        "time_elapsed": 24210,
        "internal_node_id": "0.0-2.0-4.0-3.0",
        "correct": true
    },
    {
        "rt": null,
        "stimulus": "<p style=\"font-size:60px;font-weight:bold;color:#3f48cc\">+</p>",
        "response": null,
        "type": "fixation",
        "correct_response": null,
        "trial_type": "html-button-response",
        "trial_index": 24,
        "time_elapsed": 25213,
        "internal_node_id": "0.0-2.0-4.0-4.0",
        "correct": true
    },
    {
        "rt": null,
        "stimulus": "<p style=\"font-size:60px;font-weight:bold;color:#3f48cc\">41374</p>",
        "response": null,
        "type": "novel",
        "correct_response": null,
        "trial_type": "html-button-response",
        "trial_index": 25,
        "time_elapsed": 25717,
        "internal_node_id": "0.0-2.0-5.0-0.0",
        "correct": true
    },
    {
        "rt": null,
        "stimulus": "<p style=\"font-size:60px;font-weight:bold;color:#3f48cc\">+</p>",
        "response": null,
        "type": "fixation",
        "correct_response": null,
        "trial_type": "html-button-response",
        "trial_index": 26,
        "time_elapsed": 26720,
        "internal_node_id": "0.0-2.0-5.0-1.0",
        "correct": true
    },
    {
        "rt": null,
        "stimulus": "<p style=\"font-size:60px;font-weight:bold;color:#3f48cc\">89801</p>",
        "response": null,
        "type": "novel",
        "correct_response": null,
        "trial_type": "html-button-response",
        "trial_index": 27,
        "time_elapsed": 27223,
        "internal_node_id": "0.0-2.0-6.0-0.0",
        "correct": true
    },
    {
        "rt": null,
        "stimulus": "<p style=\"font-size:60px;font-weight:bold;color:#3f48cc\">+</p>",
        "response": null,
        "type": "fixation",
        "correct_response": null,
        "trial_type": "html-button-response",
        "trial_index": 28,
        "time_elapsed": 28227,
        "internal_node_id": "0.0-2.0-6.0-1.0",
        "correct": true
    },
    {
        "rt": null,
        "stimulus": "<p style=\"font-size:60px;font-weight:bold;color:#3f48cc\">89801</p>",
        "response": null,
        "type": "target",
        "correct_response": 0,
        "trial_type": "html-button-response",
        "trial_index": 29,
        "time_elapsed": 28730,
        "internal_node_id": "0.0-2.0-6.0-2.0",
        "correct": false
    },
    {
        "rt": 591,
        "stimulus": "<p style=\"font-size:60px;font-weight:bold;color:#3f48cc\">+</p>",
        "response": 0,
        "type": "fixation",
        "correct_response": null,
        "trial_type": "html-button-response",
        "trial_index": 30,
        "time_elapsed": 29733,
        "internal_node_id": "0.0-2.0-6.0-3.0",
        "correct": false
    },
    {
        "rt": null,
        "stimulus": "<p style=\"font-size:60px;font-weight:bold;color:#3f48cc\">23797</p>",
        "response": null,
        "type": "novel",
        "correct_response": null,
        "trial_type": "html-button-response",
        "trial_index": 31,
        "time_elapsed": 30237,
        "internal_node_id": "0.0-2.0-7.0-0.0",
        "correct": true
    },
    {
        "rt": null,
        "stimulus": "<p style=\"font-size:60px;font-weight:bold;color:#3f48cc\">+</p>",
        "response": null,
        "type": "fixation",
        "correct_response": null,
        "trial_type": "html-button-response",
        "trial_index": 32,
        "time_elapsed": 31240,
        "internal_node_id": "0.0-2.0-7.0-1.0",
        "correct": true
    },
    {
        "rt": null,
        "stimulus": "<p style=\"font-size:60px;font-weight:bold;color:#3f48cc\">19644</p>",
        "response": null,
        "type": "novel",
        "correct_response": null,
        "trial_type": "html-button-response",
        "trial_index": 33,
        "time_elapsed": 31744,
        "internal_node_id": "0.0-2.0-8.0-0.0",
        "correct": true
    },
    {
        "rt": null,
        "stimulus": "<p style=\"font-size:60px;font-weight:bold;color:#3f48cc\">+</p>",
        "response": null,
        "type": "fixation",
        "correct_response": null,
        "trial_type": "html-button-response",
        "trial_index": 34,
        "time_elapsed": 32747,
        "internal_node_id": "0.0-2.0-8.0-1.0",
        "correct": true
    },
    {
        "rt": null,
        "stimulus": "<p style=\"font-size:60px;font-weight:bold;color:#3f48cc\">19644</p>",
        "response": null,
        "type": "stop",
        "correct_response": null,
        "trial_type": "html-button-response",
        "trial_index": 35,
        "time_elapsed": 32901,
        "internal_node_id": "0.0-2.0-8.0-2.0",
        "correct": true
    },
    {
        "rt": null,
        "stimulus": "<p style=\"font-size:60px;font-weight:bold;color:#ffc90e\">19644</p>",
        "response": null,
        "type": "stop",
        "correct_response": null,
        "trial_type": "html-button-response",
        "trial_index": 36,
        "time_elapsed": 33254,
        "internal_node_id": "0.0-2.0-8.0-3.0",
        "correct": true
    },
    {
        "rt": null,
        "stimulus": "<p style=\"font-size:60px;font-weight:bold;color:#3f48cc\">+</p>",
        "response": null,
        "type": "fixation",
        "correct_response": null,
        "trial_type": "html-button-response",
        "trial_index": 37,
        "time_elapsed": 34257,
        "internal_node_id": "0.0-2.0-8.0-4.0",
        "correct": true
    },
    {
        "rt": null,
        "stimulus": "<p style=\"font-size:60px;font-weight:bold;color:#3f48cc\">76872</p>",
        "response": null,
        "type": "novel",
        "correct_response": null,
        "trial_type": "html-button-response",
        "trial_index": 38,
        "time_elapsed": 34759,
        "internal_node_id": "0.0-2.0-9.0-0.0",
        "correct": true
    },
    {
        "rt": null,
        "stimulus": "<p style=\"font-size:60px;font-weight:bold;color:#3f48cc\">+</p>",
        "response": null,
        "type": "fixation",
        "correct_response": null,
        "trial_type": "html-button-response",
        "trial_index": 39,
        "time_elapsed": 35763,
        "internal_node_id": "0.0-2.0-9.0-1.0",
        "correct": true
    },
    {
        "rt": null,
        "stimulus": "<p style=\"font-size:60px;font-weight:bold;color:#3f48cc\">70816</p>",
        "response": null,
        "type": "novel",
        "correct_response": null,
        "trial_type": "html-button-response",
        "trial_index": 40,
        "time_elapsed": 36266,
        "internal_node_id": "0.0-2.0-10.0-0.0",
        "correct": true
    },
    {
        "rt": null,
        "stimulus": "<p style=\"font-size:60px;font-weight:bold;color:#3f48cc\">+</p>",
        "response": null,
        "type": "fixation",
        "correct_response": null,
        "trial_type": "html-button-response",
        "trial_index": 41,
        "time_elapsed": 37269,
        "internal_node_id": "0.0-2.0-10.0-1.0",
        "correct": true
    },
    {
        "rt": null,
        "stimulus": "<p style=\"font-size:60px;font-weight:bold;color:#3f48cc\">70816</p>",
        "response": null,
        "type": "target",
        "correct_response": 0,
        "trial_type": "html-button-response",
        "trial_index": 42,
        "time_elapsed": 37773,
        "internal_node_id": "0.0-2.0-10.0-2.0",
        "correct": false
    },
    {
        "rt": 267,
        "stimulus": "<p style=\"font-size:60px;font-weight:bold;color:#3f48cc\">+</p>",
        "response": 0,
        "type": "fixation",
        "correct_response": null,
        "trial_type": "html-button-response",
        "trial_index": 43,
        "time_elapsed": 38776,
        "internal_node_id": "0.0-2.0-10.0-3.0",
        "correct": false
    },
    {
        "rt": null,
        "stimulus": "<p style=\"font-size:60px;font-weight:bold;color:#3f48cc\">78835</p>",
        "response": null,
        "type": "novel",
        "correct_response": null,
        "trial_type": "html-button-response",
        "trial_index": 44,
        "time_elapsed": 39279,
        "internal_node_id": "0.0-2.0-11.0-0.0",
        "correct": true
    },
    {
        "rt": null,
        "stimulus": "<p style=\"font-size:60px;font-weight:bold;color:#3f48cc\">+</p>",
        "response": null,
        "type": "fixation",
        "correct_response": null,
        "trial_type": "html-button-response",
        "trial_index": 45,
        "time_elapsed": 40281,
        "internal_node_id": "0.0-2.0-11.0-1.0",
        "correct": true
    },
    {
        "rt": 1430,
        "stimulus": "Press the button below to complete the task. Thank you!",
        "response": 0,
        "trial_type": "html-button-response",
        "trial_index": 46,
        "time_elapsed": 41713,
        "internal_node_id": "0.0-3.0"
    }
]